theta,intensity
5.0000,2.732
5.0400,2.368
5.0800,2.353
5.1200,2.338
5.1600,2.360
5.2000,2.272
5.2400,2.272
5.2800,2.248
5.3200,2.198
5.3600,2.151
5.4000,2.135
5.4400,2.147
5.4800,2.261
5.5200,2.197
5.5600,2.182
5.6000,2.169
5.6400,2.113
5.6800,2.078
5.7200,2.088
5.7600,2.062
5.8000,2.034
5.8400,1.988
5.8800,1.930
5.9200,1.944
5.9600,1.932
6.0000,1.907
6.0400,1.894
6.0800,1.873
6.1200,1.816
6.1600,1.819
6.2000,1.818
6.2400,1.714
6.2800,1.783
6.3200,1.766
6.3600,1.673
6.4000,1.679
6.4400,1.609
6.4800,1.579
6.5200,1.623
6.5600,1.567
6.6000,1.562
6.6400,1.546
6.6800,1.582
6.7200,1.592
6.7600,1.559
6.8000,1.555
6.8400,1.512
6.8800,1.483
6.9200,1.488
6.9600,1.446
7.0000,1.490
7.0400,1.478
7.0800,1.488
7.1200,1.515
7.1600,1.466
7.2000,1.483
7.2400,1.457
7.2800,1.470
7.3200,1.472
7.3600,1.474
7.4000,1.459
7.4400,1.493
7.4800,1.491
7.5200,1.481
7.5600,1.458
7.6000,1.474
7.6400,1.474
7.6800,1.440
7.7200,1.415
7.7600,1.449
7.8000,1.433
7.8400,1.419
7.8800,1.431
7.9200,1.401
7.9600,1.427
8.0000,1.421
8.0400,1.460
8.0800,1.422
8.1200,1.433
8.1600,1.425
8.2000,1.475
8.2400,1.387
8.2800,1.490
8.3200,1.435
8.3600,1.443
8.4000,1.439
8.4400,1.370
8.4800,1.392
8.5200,1.437
8.5600,1.463
8.6000,1.445
8.6400,1.482
8.6800,1.399
8.7200,1.401
8.7600,1.433
8.8000,1.414
8.8400,1.434
8.8800,1.432
8.9200,1.408
8.9600,1.357
9.0000,1.354
9.0400,1.433
9.0800,1.421
9.1200,1.388
9.1600,1.454
9.2000,1.460
9.2400,1.411
9.2800,1.368
9.3200,1.406
9.3600,1.350
9.4000,1.381
9.4400,1.385
9.4800,1.393
9.5200,1.381
9.5600,1.382
9.6000,1.381
9.6400,1.371
9.6800,1.374
9.7200,1.369
9.7600,1.373
9.8000,1.377
9.8400,1.408
9.8800,1.353
9.9200,1.390
9.9600,1.383
10.0000,1.404
10.0400,1.422
10.0800,1.339
10.1200,1.370
10.1600,1.376
10.2000,1.343
10.2400,1.323
10.2800,1.422
10.3200,1.398
10.3600,1.363
10.4000,1.385
10.4400,1.350
10.4800,1.397
10.5200,1.375
10.5600,1.381
10.6000,1.349
10.6400,1.396
10.6800,1.354
10.7200,1.351
10.7600,1.343
10.8000,1.373
10.8400,1.342
10.8800,1.371
10.9200,1.327
10.9600,1.330
11.0000,1.339
11.0400,1.347
11.0800,1.297
11.1200,1.339
11.1600,1.326
11.2000,1.347
11.2400,1.345
11.2800,1.351
11.3200,1.353
11.3600,1.317
11.4000,1.363
11.4400,1.355
11.4800,1.359
11.5200,1.322
11.5600,1.326
11.6000,1.342
11.6400,1.360
11.6800,1.326
11.7200,1.338
11.7600,1.347
11.8000,1.326
11.8400,1.280
11.8800,1.321
11.9200,1.342
11.9600,1.328
12.0000,1.339
12.0400,1.341
12.0800,1.294
12.1200,1.332
12.1600,1.341
12.2000,1.300
12.2400,1.241
12.2800,1.269
12.3200,1.319
12.3600,1.299
12.4000,1.273
12.4400,1.267
12.4800,1.281
12.5200,1.320
12.5600,1.304
12.6000,1.250
12.6400,1.227
12.6800,1.268
12.7200,1.335
12.7600,1.289
12.8000,1.302
12.8400,1.275
12.8800,1.304
12.9200,1.308
12.9600,1.250
13.0000,1.283
13.0400,1.246
13.0800,1.297
13.1200,1.312
13.1600,1.280
13.2000,1.245
13.2400,1.272
13.2800,1.257
13.3200,1.261
13.3600,1.294
13.4000,1.245
13.4400,1.322
13.4800,1.286
13.5200,1.276
13.5600,1.216
13.6000,1.269
13.6400,1.267
13.6800,1.249
13.7200,1.300
13.7600,1.243
13.8000,1.299
13.8400,1.257
13.8800,1.243
13.9200,1.251
13.9600,1.258
14.0000,1.241
14.0400,1.246
14.0800,1.241
14.1200,1.230
14.1600,1.283
14.2000,1.245
14.2400,1.196
14.2800,1.231
14.3200,1.245
14.3600,1.208
14.4000,1.252
14.4400,1.251
14.4800,1.291
14.5200,1.223
14.5600,1.243
14.6000,1.171
14.6400,1.215
14.6800,1.202
14.7200,1.183
14.7600,1.245
14.8000,1.202
14.8400,1.230
14.8800,1.230
14.9200,1.194
14.9600,1.235
15.0000,1.255
15.0400,1.223
15.0800,1.194
15.1200,1.178
15.1600,1.223
15.2000,1.241
15.2400,1.227
15.2800,1.179
15.3200,1.217
15.3600,1.184
15.4000,1.194
15.4400,1.214
15.4800,1.234
15.5200,1.227
15.5600,1.219
15.6000,1.179
15.6400,1.225
15.6800,1.241
15.7200,1.191
15.7600,1.163
15.8000,1.216
15.8400,1.199
15.8800,1.211
15.9200,1.216
15.9600,1.192
16.0000,1.197
16.0400,1.188
16.0800,1.212
16.1200,1.180
16.1600,1.222
16.2000,1.198
16.2400,1.190
16.2800,1.212
16.3200,1.163
16.3600,1.177
16.4000,1.154
16.4400,1.211
16.4800,1.181
16.5200,1.176
16.5600,1.149
16.6000,1.205
16.6400,1.179
16.6800,1.173
16.7200,1.214
16.7600,1.190
16.8000,1.178
16.8400,1.193
16.8800,1.189
16.9200,1.202
16.9600,1.183
17.0000,1.205
17.0400,1.192
17.0800,1.269
17.1200,1.158
17.1600,1.176
17.2000,1.195
17.2400,1.221
17.2800,1.179
17.3200,1.231
17.3600,1.155
17.4000,1.187
17.4400,1.186
17.4800,1.176
17.5200,1.186
17.5600,1.223
17.6000,1.180
17.6400,1.139
17.6800,1.165
17.7200,1.155
17.7600,1.211
17.8000,1.230
17.8400,1.187
17.8800,1.202
17.9200,1.197
17.9600,1.172
18.0000,1.191
18.0400,1.176
18.0800,1.177
18.1200,1.175
18.1600,1.156
18.2000,1.159
18.2400,1.201
18.2800,1.168
18.3200,1.175
18.3600,1.147
18.4000,1.147
18.4400,1.199
18.4800,1.162
18.5200,1.194
18.5600,1.222
18.6000,1.179
18.6400,1.189
18.6800,1.167
18.7200,1.179
18.7600,1.171
18.8000,1.166
18.8400,1.145
18.8800,1.177
18.9200,1.175
18.9600,1.196
19.0000,1.151
19.0400,1.137
19.0800,1.136
19.1200,1.172
19.1600,1.173
19.2000,1.163
19.2400,1.134
19.2800,1.175
19.3200,1.148
19.3600,1.131
19.4000,1.175
19.4400,1.138
19.4800,1.153
19.5200,1.202
19.5600,1.138
19.6000,1.188
19.6400,1.191
19.6800,1.172
19.7200,1.118
19.7600,1.208
19.8000,1.143
19.8400,1.133
19.8800,1.192
19.9200,1.192
19.9600,1.177
20.0000,1.154
20.0400,1.147
20.0800,1.178
20.1200,1.172
20.1600,1.156
20.2000,1.151
20.2400,1.104
20.2800,1.225
20.3200,1.186
20.3600,1.160
20.4000,1.160
20.4400,1.149
20.4800,1.134
20.5200,1.085
20.5600,1.155
20.6000,1.170
20.6400,1.137
20.6800,1.134
20.7200,1.132
20.7600,1.127
20.8000,1.149
20.8400,1.160
20.8800,1.145
20.9200,1.138
20.9600,1.119
21.0000,1.091
21.0400,1.109
21.0800,1.155
21.1200,1.143
21.1600,1.114
21.2000,1.097
21.2400,1.124
21.2800,1.151
21.3200,1.157
21.3600,1.092
21.4000,1.110
21.4400,1.114
21.4800,1.086
21.5200,1.120
21.5600,1.086
21.6000,1.133
21.6400,1.113
21.6800,1.115
21.7200,1.096
21.7600,1.154
21.8000,1.113
21.8400,1.101
21.8800,1.153
21.9200,1.057
21.9600,1.084
22.0000,1.092
22.0400,1.087
22.0800,1.101
22.1200,1.074
22.1600,1.112
22.2000,1.102
22.2400,1.073
22.2800,1.072
22.3200,1.082
22.3600,1.069
22.4000,1.063
22.4400,1.064
22.4800,1.069
22.5200,1.030
22.5600,1.051
22.6000,1.030
22.6400,1.042
22.6800,1.064
22.7200,1.007
22.7600,1.016
22.8000,1.059
22.8400,1.032
22.8800,1.010
22.9200,0.971
22.9600,1.019
23.0000,0.991
23.0400,1.031
23.0800,1.062
23.1200,0.982
23.1600,1.026
23.2000,1.003
23.2400,1.031
23.2800,1.013
23.3200,1.012
23.3600,0.996
23.4000,1.004
23.4400,0.955
23.4800,1.002
23.5200,0.990
23.5600,0.942
23.6000,0.984
23.6400,0.971
23.6800,0.943
23.7200,0.972
23.7600,0.895
23.8000,0.947
23.8400,0.941
23.8800,0.987
23.9200,0.970
23.9600,0.954
24.0000,0.966
24.0400,0.934
24.0800,0.953
24.1200,0.989
24.1600,0.936
24.2000,0.976
24.2400,0.931
24.2800,0.919
24.3200,0.934
24.3600,0.930
24.4000,0.953
24.4400,0.915
24.4800,0.916
24.5200,0.930
24.5600,0.945
24.6000,0.964
24.6400,0.917
24.6800,0.869
24.7200,0.873
24.7600,0.908
24.8000,0.877
24.8400,0.885
24.8800,0.883
24.9200,0.909
24.9600,0.922
25.0000,0.889
25.0400,0.885
25.0800,0.908
25.1200,0.856
25.1600,0.873
25.2000,0.857
25.2400,0.864
25.2800,0.927
25.3200,0.868
25.3600,0.852
25.4000,0.894
25.4400,0.860
25.4800,0.869
25.5200,0.875
25.5600,0.855
25.6000,0.865
25.6400,0.847
25.6800,0.868
25.7200,0.837
25.7600,0.856
25.8000,0.905
25.8400,0.880
25.8800,0.816
25.9200,0.827
25.9600,0.834
26.0000,0.798
26.0400,0.805
26.0800,0.837
26.1200,0.862
26.1600,0.820
26.2000,0.823
26.2400,0.827
26.2800,0.802
26.3200,0.833
26.3600,0.764
26.4000,0.787
26.4400,0.826
26.4800,0.806
26.5200,0.792
26.5600,0.830
26.6000,0.794
26.6400,0.760
26.6800,0.783
26.7200,0.803
26.7600,0.773
26.8000,0.801
26.8400,0.808
26.8800,0.814
26.9200,0.781
26.9600,0.775
27.0000,0.752
27.0400,0.772
27.0800,0.765
27.1200,0.792
27.1600,0.746
27.2000,0.791
27.2400,0.753
27.2800,0.783
27.3200,0.787
27.3600,0.774
27.4000,0.761
27.4400,0.748
27.4800,0.750
27.5200,0.754
27.5600,0.742
27.6000,0.743
27.6400,0.732
27.6800,0.736
27.7200,0.748
27.7600,0.722
27.8000,0.729
27.8400,0.771
27.8800,0.776
27.9200,0.753
27.9600,0.726
28.0000,0.721
28.0400,0.747
28.0800,0.733
28.1200,0.700
28.1600,0.787
28.2000,0.722
28.2400,0.741
28.2800,0.741
28.3200,0.741
28.3600,0.710
28.4000,0.711
28.4400,0.714
28.4800,0.705
28.5200,0.732
28.5600,0.695
28.6000,0.703
28.6400,0.683
28.6800,0.689
28.7200,0.748
28.7600,0.707
28.8000,0.721
28.8400,0.708
28.8800,0.697
28.9200,0.703
28.9600,0.719
29.0000,0.712
29.0400,0.708
29.0800,0.714
29.1200,0.688
29.1600,0.712
29.2000,0.704
29.2400,0.681
29.2800,0.685
29.3200,0.685
29.3600,0.672
29.4000,0.659
29.4400,0.709
29.4800,0.665
29.5200,0.638
29.5600,0.680
29.6000,0.673
29.6400,0.654
29.6800,0.661
29.7200,0.643
29.7600,0.703
29.8000,0.670
29.8400,0.657
29.8800,0.648
29.9200,0.698
29.9600,0.714
30.0000,0.667
30.0400,0.701
30.0800,0.682
30.1200,0.620
30.1600,0.626
30.2000,0.658
30.2400,0.693
30.2800,0.669
30.3200,0.637
30.3600,0.640
30.4000,0.671
30.4400,0.661
30.4800,0.666
30.5200,0.642
30.5600,0.631
30.6000,0.662
30.6400,0.632
30.6800,0.661
30.7200,0.604
30.7600,0.606
30.8000,0.635
30.8400,0.622
30.8800,0.635
30.9200,0.616
30.9600,0.666
31.0000,0.635
31.0400,0.622
31.0800,0.625
31.1200,0.624
31.1600,0.645
31.2000,0.602
31.2400,0.610
31.2800,0.637
31.3200,0.597
31.3600,0.630
31.4000,0.602
31.4400,0.594
31.4800,0.623
31.5200,0.657
31.5600,0.612
31.6000,0.616
31.6400,0.636
31.6800,0.620
31.7200,0.563
31.7600,0.574
31.8000,0.613
31.8400,0.612
31.8800,0.612
31.9200,0.614
31.9600,0.586
32.0000,0.604
32.0400,0.607
32.0800,0.608
32.1200,0.580
32.1600,0.597
32.2000,0.601
32.2400,0.586
32.2800,0.597
32.3200,0.602
32.3600,0.575
32.4000,0.601
32.4400,0.587
32.4800,0.600
32.5200,0.579
32.5600,0.563
32.6000,0.583
32.6400,0.578
32.6800,0.604
32.7200,0.588
32.7600,0.579
32.8000,0.604
32.8400,0.593
32.8800,0.564
32.9200,0.587
32.9600,0.590
33.0000,0.566
33.0400,0.575
33.0800,0.569
33.1200,0.597
33.1600,0.571
33.2000,0.564
33.2400,0.529
33.2800,0.563
33.3200,0.562
33.3600,0.543
33.4000,0.545
33.4400,0.534
33.4800,0.531
33.5200,0.535
33.5600,0.544
33.6000,0.564
33.6400,0.551
33.6800,0.577
33.7200,0.547
33.7600,0.597
33.8000,0.517
33.8400,0.589
33.8800,0.563
33.9200,0.556
33.9600,0.568
34.0000,0.533
34.0400,0.541
34.0800,0.530
34.1200,0.561
34.1600,0.523
34.2000,0.545
34.2400,0.536
34.2800,0.542
34.3200,0.544
34.3600,0.584
34.4000,0.553
34.4400,0.528
34.4800,0.525
34.5200,0.546
34.5600,0.515
34.6000,0.503
34.6400,0.543
34.6800,0.529
34.7200,0.517
34.7600,0.515
34.8000,0.522
34.8400,0.528
34.8800,0.504
34.9200,0.525
34.9600,0.534
35.0000,0.531
35.0400,0.534
35.0800,0.535
35.1200,0.518
35.1600,0.543
35.2000,0.530
35.2400,0.491
35.2800,0.567
35.3200,0.508
35.3600,0.513
35.4000,0.515
35.4400,0.513
35.4800,0.492
35.5200,0.495
35.5600,0.537
35.6000,0.516
35.6400,0.495
35.6800,0.511
35.7200,0.550
35.7600,0.527
35.8000,0.510
35.8400,0.523
35.8800,0.484
35.9200,0.497
35.9600,0.515
36.0000,0.496
36.0400,0.516
36.0800,0.526
36.1200,0.488
36.1600,0.518
36.2000,0.497
36.2400,0.499
36.2800,0.489
36.3200,0.542
36.3600,0.501
36.4000,0.515
36.4400,0.489
36.4800,0.502
36.5200,0.513
36.5600,0.500
36.6000,0.503
36.6400,0.494
36.6800,0.530
36.7200,0.542
36.7600,0.491
36.8000,0.501
36.8400,0.492
36.8800,0.509
36.9200,0.518
36.9600,0.514
37.0000,0.516
37.0400,0.493
37.0800,0.495
37.1200,0.524
37.1600,0.493
37.2000,0.521
37.2400,0.490
37.2800,0.532
37.3200,0.518
37.3600,0.540
37.4000,0.526
37.4400,0.515
37.4800,0.512
37.5200,0.515
37.5600,0.539
37.6000,0.530
37.6400,0.505
37.6800,0.533
37.7200,0.499
37.7600,0.539
37.8000,0.553
37.8400,0.556
37.8800,0.512
37.9200,0.534
37.9600,0.541
38.0000,0.577
38.0400,0.580
38.0800,0.610
38.1200,0.644
38.1600,0.662
38.2000,0.642
38.2400,0.672
38.2800,0.611
38.3200,0.636
38.3600,0.614
38.4000,0.623
38.4400,0.608
38.4800,0.629
38.5200,0.633
38.5600,0.670
38.6000,0.698
38.6400,0.713
38.6800,0.729
38.7200,0.741
38.7600,0.832
38.8000,0.847
38.8400,0.880
38.8800,0.873
38.9200,0.967
38.9600,1.030
39.0000,1.130
39.0400,1.126
39.0800,1.237
39.1200,1.403
39.1600,1.431
39.2000,1.632
39.2400,1.749
39.2800,1.885
39.3200,2.140
39.3600,2.351
39.4000,2.466
39.4400,2.679
39.4800,2.855
39.5200,3.138
39.5600,3.312
39.6000,3.558
39.6400,3.694
39.6800,3.683
39.7200,3.683
39.7600,3.787
39.8000,3.778
39.8400,3.683
39.8800,3.517
39.9200,3.412
39.9600,3.235
40.0000,2.982
40.0400,2.735
40.0800,2.501
40.1200,2.327
40.1600,2.012
40.2000,1.766
40.2400,1.616
40.2800,1.454
40.3200,1.371
40.3600,1.209
40.4000,1.091
40.4400,1.021
40.4800,0.931
40.5200,0.918
40.5600,0.790
40.6000,0.765
40.6400,0.744
40.6800,0.724
40.7200,0.712
40.7600,0.682
40.8000,0.638
40.8400,0.604
40.8800,0.632
40.9200,0.591
40.9600,0.587
41.0000,0.565
41.0400,0.552
41.0800,0.554
41.1200,0.534
41.1600,0.549
41.2000,0.535
41.2400,0.529
41.2800,0.509
41.3200,0.486
41.3600,0.470
41.4000,0.498
41.4400,0.481
41.4800,0.473
41.5200,0.456
41.5600,0.479
41.6000,0.506
41.6400,0.470
41.6800,0.458
41.7200,0.462
41.7600,0.440
41.8000,0.466
41.8400,0.461
41.8800,0.423
41.9200,0.413
41.9600,0.453
42.0000,0.456
42.0400,0.422
42.0800,0.429
42.1200,0.434
42.1600,0.438
42.2000,0.432
42.2400,0.472
42.2800,0.447
42.3200,0.439
42.3600,0.464
42.4000,0.443
42.4400,0.414
42.4800,0.432
42.5200,0.426
42.5600,0.416
42.6000,0.417
42.6400,0.436
42.6800,0.427
42.7200,0.421
42.7600,0.401
42.8000,0.407
42.8400,0.448
42.8800,0.402
42.9200,0.407
42.9600,0.390
43.0000,0.376
43.0400,0.432
43.0800,0.410
43.1200,0.374
43.1600,0.404
43.2000,0.396
43.2400,0.420
43.2800,0.434
43.3200,0.388
43.3600,0.405
43.4000,0.405
43.4400,0.394
43.4800,0.409
43.5200,0.408
43.5600,0.427
43.6000,0.396
43.6400,0.385
43.6800,0.409
43.7200,0.421
43.7600,0.389
43.8000,0.390
43.8400,0.400
43.8800,0.411
43.9200,0.449
43.9600,0.410
44.0000,0.420
44.0400,0.392
44.0800,0.422
44.1200,0.454
44.1600,0.424
44.2000,0.446
44.2400,0.444
44.2800,0.462
44.3200,0.465
44.3600,0.465
44.4000,0.485
44.4400,0.469
44.4800,0.468
44.5200,0.446
44.5600,0.444
44.6000,0.477
44.6400,0.470
44.6800,0.485
44.7200,0.475
44.7600,0.491
44.8000,0.469
44.8400,0.487
44.8800,0.498
44.9200,0.503
44.9600,0.509
45.0000,0.542
45.0400,0.520
45.0800,0.548
45.1200,0.542
45.1600,0.598
45.2000,0.591
45.2400,0.598
45.2800,0.620
45.3200,0.604
45.3600,0.641
45.4000,0.677
45.4400,0.720
45.4800,0.720
45.5200,0.759
45.5600,0.788
45.6000,0.840
45.6400,0.875
45.6800,0.930
45.7200,0.975
45.7600,1.011
45.8000,1.042
45.8400,1.116
45.8800,1.130
45.9200,1.182
45.9600,1.255
46.0000,1.282
46.0400,1.318
46.0800,1.305
46.1200,1.311
46.1600,1.405
46.2000,1.370
46.2400,1.333
46.2800,1.365
46.3200,1.320
46.3600,1.303
46.4000,1.309
46.4400,1.273
46.4800,1.218
46.5200,1.182
46.5600,1.108
46.6000,1.053
46.6400,1.007
46.6800,0.931
46.7200,0.883
46.7600,0.828
46.8000,0.785
46.8400,0.741
46.8800,0.674
46.9200,0.662
46.9600,0.616
47.0000,0.579
47.0400,0.561
47.0800,0.507
47.1200,0.489
47.1600,0.526
47.2000,0.486
47.2400,0.464
47.2800,0.464
47.3200,0.422
47.3600,0.415
47.4000,0.392
47.4400,0.381
47.4800,0.365
47.5200,0.375
47.5600,0.405
47.6000,0.380
47.6400,0.374
47.6800,0.364
47.7200,0.368
47.7600,0.365
47.8000,0.355
47.8400,0.346
47.8800,0.358
47.9200,0.338
47.9600,0.324
48.0000,0.330
48.0400,0.313
48.0800,0.330
48.1200,0.314
48.1600,0.314
48.2000,0.300
48.2400,0.308
48.2800,0.307
48.3200,0.307
48.3600,0.305
48.4000,0.304
48.4400,0.316
48.4800,0.302
48.5200,0.311
48.5600,0.315
48.6000,0.298
48.6400,0.293
48.6800,0.296
48.7200,0.274
48.7600,0.283
48.8000,0.296
48.8400,0.295
48.8800,0.305
48.9200,0.276
48.9600,0.293
49.0000,0.262
49.0400,0.270
49.0800,0.283
49.1200,0.285
49.1600,0.300
49.2000,0.289
49.2400,0.267
49.2800,0.267
49.3200,0.298
49.3600,0.295
49.4000,0.284
49.4400,0.273
49.4800,0.254
49.5200,0.263
49.5600,0.269
49.6000,0.290
49.6400,0.274
49.6800,0.282
49.7200,0.259
49.7600,0.254
49.8000,0.267
49.8400,0.293
49.8800,0.264
49.9200,0.271
49.9600,0.268
50.0000,0.287
50.0400,0.277
50.0800,0.277
50.1200,0.244
50.1600,0.278
50.2000,0.245
50.2400,0.245
50.2800,0.264
50.3200,0.264
50.3600,0.252
50.4000,0.269
50.4400,0.254
50.4800,0.250
50.5200,0.250
50.5600,0.265
50.6000,0.263
50.6400,0.278
50.6800,0.264
50.7200,0.267
50.7600,0.251
50.8000,0.257
50.8400,0.261
50.8800,0.252
50.9200,0.253
50.9600,0.243
51.0000,0.254
51.0400,0.245
51.0800,0.246
51.1200,0.264
51.1600,0.245
51.2000,0.250
51.2400,0.234
51.2800,0.255
51.3200,0.233
51.3600,0.258
51.4000,0.244
51.4400,0.267
51.4800,0.247
51.5200,0.240
51.5600,0.243
51.6000,0.252
51.6400,0.277
51.6800,0.260
51.7200,0.248
51.7600,0.246
51.8000,0.246
51.8400,0.264
51.8800,0.251
51.9200,0.240
51.9600,0.246
52.0000,0.233
52.0400,0.238
52.0800,0.249
52.1200,0.220
52.1600,0.244
52.2000,0.246
52.2400,0.238
52.2800,0.248
52.3200,0.258
52.3600,0.227
52.4000,0.253
52.4400,0.233
52.4800,0.250
52.5200,0.251
52.5600,0.241
52.6000,0.237
52.6400,0.232
52.6800,0.233
52.7200,0.230
52.7600,0.228
52.8000,0.238
52.8400,0.245
52.8800,0.232
52.9200,0.226
52.9600,0.231
53.0000,0.257
53.0400,0.231
53.0800,0.239
53.1200,0.251
53.1600,0.236
53.2000,0.233
53.2400,0.214
53.2800,0.222
53.3200,0.236
53.3600,0.251
53.4000,0.239
53.4400,0.249
53.4800,0.232
53.5200,0.235
53.5600,0.228
53.6000,0.239
53.6400,0.232
53.6800,0.232
53.7200,0.238
53.7600,0.226
53.8000,0.251
53.8400,0.238
53.8800,0.202
53.9200,0.247
53.9600,0.230
54.0000,0.241
54.0400,0.242
54.0800,0.233
54.1200,0.208
54.1600,0.234
54.2000,0.242
54.2400,0.232
54.2800,0.249
54.3200,0.229
54.3600,0.227
54.4000,0.216
54.4400,0.219
54.4800,0.218
54.5200,0.235
54.5600,0.213
54.6000,0.221
54.6400,0.217
54.6800,0.218
54.7200,0.234
54.7600,0.232
54.8000,0.220
54.8400,0.221
54.8800,0.222
54.9200,0.232
54.9600,0.217
55.0000,0.220
55.0400,0.229
55.0800,0.224
55.1200,0.220
55.1600,0.210
55.2000,0.215
55.2400,0.229
55.2800,0.215
55.3200,0.218
55.3600,0.221
55.4000,0.205
55.4400,0.226
55.4800,0.225
55.5200,0.214
55.5600,0.232
55.6000,0.229
55.6400,0.225
55.6800,0.221
55.7200,0.219
55.7600,0.228
55.8000,0.205
55.8400,0.214
55.8800,0.211
55.9200,0.215
55.9600,0.215
56.0000,0.195
56.0400,0.214
56.0800,0.219
56.1200,0.225
56.1600,0.215
56.2000,0.195
56.2400,0.200
56.2800,0.205
56.3200,0.214
56.3600,0.208
56.4000,0.225
56.4400,0.213
56.4800,0.216
56.5200,0.210
56.5600,0.222
56.6000,0.214
56.6400,0.214
56.6800,0.223
56.7200,0.193
56.7600,0.206
56.8000,0.218
56.8400,0.214
56.8800,0.215
56.9200,0.192
56.9600,0.220
57.0000,0.220
57.0400,0.220
57.0800,0.202
57.1200,0.203
57.1600,0.213
57.2000,0.203
57.2400,0.203
57.2800,0.209
57.3200,0.214
57.3600,0.216
57.4000,0.209
57.4400,0.215
57.4800,0.207
57.5200,0.213
57.5600,0.216
57.6000,0.195
57.6400,0.194
57.6800,0.214
57.7200,0.197
57.7600,0.218
57.8000,0.192
57.8400,0.197
57.8800,0.212
57.9200,0.229
57.9600,0.227
58.0000,0.207
58.0400,0.199
58.0800,0.186
58.1200,0.206
58.1600,0.218
58.2000,0.202
58.2400,0.208
58.2800,0.195
58.3200,0.215
58.3600,0.222
58.4000,0.193
58.4400,0.210
58.4800,0.185
58.5200,0.208
58.5600,0.193
58.6000,0.208
58.6400,0.208
58.6800,0.195
58.7200,0.213
58.7600,0.220
58.8000,0.211
58.8400,0.184
58.8800,0.200
58.9200,0.219
58.9600,0.206
59.0000,0.207
59.0400,0.228
59.0800,0.217
59.1200,0.199
59.1600,0.193
59.2000,0.209
59.2400,0.189
59.2800,0.206
59.3200,0.218
59.3600,0.215
59.4000,0.192
59.4400,0.196
59.4800,0.199
59.5200,0.209
59.5600,0.201
59.6000,0.238
59.6400,0.228
59.6800,0.215
59.7200,0.206
59.7600,0.203
59.8000,0.209
59.8400,0.205
59.8800,0.212
59.9200,0.221
59.9600,0.224
60.0000,0.197
60.0400,0.204
60.0800,0.229
60.1200,0.197
60.1600,0.194
60.2000,0.192
60.2400,0.192
60.2800,0.225
60.3200,0.198
60.3600,0.202
60.4000,0.201
60.4400,0.208
60.4800,0.208
60.5200,0.183
60.5600,0.209
60.6000,0.183
60.6400,0.215
60.6800,0.211
60.7200,0.219
60.7600,0.211
60.8000,0.201
60.8400,0.192
60.8800,0.202
60.9200,0.223
60.9600,0.211
61.0000,0.198
61.0400,0.211
61.0800,0.207
61.1200,0.219
61.1600,0.215
61.2000,0.212
61.2400,0.193
61.2800,0.215
61.3200,0.209
61.3600,0.200
61.4000,0.208
61.4400,0.201
61.4800,0.206
61.5200,0.198
61.5600,0.202
61.6000,0.198
61.6400,0.203
61.6800,0.216
61.7200,0.202
61.7600,0.202
61.8000,0.202
61.8400,0.217
61.8800,0.224
61.9200,0.215
61.9600,0.225
62.0000,0.229
62.0400,0.211
62.0800,0.192
62.1200,0.210
62.1600,0.202
62.2000,0.225
62.2400,0.205
62.2800,0.217
62.3200,0.223
62.3600,0.194
62.4000,0.196
62.4400,0.199
62.4800,0.220
62.5200,0.231
62.5600,0.217
62.6000,0.205
62.6400,0.227
62.6800,0.211
62.7200,0.216
62.7600,0.214
62.8000,0.224
62.8400,0.231
62.8800,0.228
62.9200,0.225
62.9600,0.214
63.0000,0.229
63.0400,0.224
63.0800,0.210
63.1200,0.231
63.1600,0.225
63.2000,0.228
63.2400,0.227
63.2800,0.210
63.3200,0.243
63.3600,0.209
63.4000,0.220
63.4400,0.221
63.4800,0.246
63.5200,0.243
63.5600,0.235
63.6000,0.219
63.6400,0.201
63.6800,0.216
63.7200,0.237
63.7600,0.238
63.8000,0.236
63.8400,0.233
63.8800,0.214
63.9200,0.244
63.9600,0.212
64.0000,0.227
64.0400,0.227
64.0800,0.231
64.1200,0.237
64.1600,0.228
64.2000,0.256
64.2400,0.261
64.2800,0.263
64.3200,0.247
64.3600,0.242
64.4000,0.256
64.4400,0.269
64.4800,0.263
64.5200,0.261
64.5600,0.280
64.6000,0.267
64.6400,0.263
64.6800,0.270
64.7200,0.248
64.7600,0.264
64.8000,0.265
64.8400,0.252
64.8800,0.266
64.9200,0.268
64.9600,0.260
65.0000,0.242
65.0400,0.284
65.0800,0.269
65.1200,0.261
65.1600,0.298
65.2000,0.285
65.2400,0.290
65.2800,0.287
65.3200,0.284
65.3600,0.310
65.4000,0.308
65.4400,0.303
65.4800,0.283
65.5200,0.306
65.5600,0.310
65.6000,0.296
65.6400,0.292
65.6800,0.301
65.7200,0.325
65.7600,0.336
65.8000,0.346
65.8400,0.343
65.8800,0.328
65.9200,0.338
65.9600,0.338
66.0000,0.356
66.0400,0.365
66.0800,0.385
66.1200,0.388
66.1600,0.377
66.2000,0.383
66.2400,0.411
66.2800,0.386
66.3200,0.396
66.3600,0.442
66.4000,0.446
66.4400,0.466
66.4800,0.470
66.5200,0.491
66.5600,0.498
66.6000,0.527
66.6400,0.525
66.6800,0.549
66.7200,0.587
66.7600,0.578
66.8000,0.596
66.8400,0.615
66.8800,0.619
66.9200,0.648
66.9600,0.661
67.0000,0.671
67.0400,0.709
67.0800,0.695
67.1200,0.761
67.1600,0.763
67.2000,0.725
67.2400,0.808
67.2800,0.843
67.3200,0.824
67.3600,0.861
67.4000,0.886
67.4400,0.878
67.4800,0.882
67.5200,0.844
67.5600,0.882
67.6000,0.838
67.6400,0.833
67.6800,0.868
67.7200,0.857
67.7600,0.874
67.8000,0.866
67.8400,0.849
67.8800,0.860
67.9200,0.836
67.9600,0.874
68.0000,0.832
68.0400,0.822
68.0800,0.817
68.1200,0.812
68.1600,0.849
68.2000,0.822
68.2400,0.810
68.2800,0.822
68.3200,0.802
68.3600,0.810
68.4000,0.817
68.4400,0.830
68.4800,0.866
68.5200,0.940
68.5600,0.934
68.6000,0.957
68.6400,1.028
68.6800,1.209
68.7200,1.552
68.7600,1.768
68.8000,1.974
68.8400,2.115
68.8800,2.307
68.9200,2.617
68.9600,3.680
69.0000,6.346
69.0400,20.130
69.0800,65.575
69.1200,96.686
69.1600,82.244
69.2000,50.607
69.2400,27.260
69.2800,38.435
69.3200,51.240
69.3600,43.606
69.4000,25.989
69.4400,9.705
69.4800,4.099
69.5200,2.669
69.5600,2.063
69.6000,1.668
69.6400,1.501
69.6800,1.332
69.7200,1.250
69.7600,1.112
69.8000,1.000
69.8400,0.957
69.8800,0.935
69.9200,0.873
69.9600,0.797
70.0000,0.769
70.0400,0.734
70.0800,0.728
70.1200,0.709
70.1600,0.735
70.2000,0.670
70.2400,0.660
70.2800,0.619
70.3200,0.597
70.3600,0.645
70.4000,0.627
70.4400,0.577
70.4800,0.560
70.5200,0.542
70.5600,0.514
70.6000,0.558
70.6400,0.508
70.6800,0.540
70.7200,0.494
70.7600,0.479
70.8000,0.487
70.8400,0.450
70.8800,0.471
70.9200,0.454
70.9600,0.448
71.0000,0.398
71.0400,0.440
71.0800,0.458
71.1200,0.405
71.1600,0.420
71.2000,0.392
71.2400,0.401
71.2800,0.392
71.3200,0.410
71.3600,0.366
71.4000,0.370
71.4400,0.360
71.4800,0.356
71.5200,0.354
71.5600,0.349
71.6000,0.377
71.6400,0.341
71.6800,0.346
71.7200,0.335
71.7600,0.351
71.8000,0.328
71.8400,0.344
71.8800,0.321
71.9200,0.302
71.9600,0.333
72.0000,0.309
72.0400,0.305
72.0800,0.286
72.1200,0.292
72.1600,0.298
72.2000,0.300
72.2400,0.289
72.2800,0.252
72.3200,0.290
72.3600,0.284
72.4000,0.288
72.4400,0.261
72.4800,0.286
72.5200,0.274
72.5600,0.273
72.6000,0.258
72.6400,0.268
72.6800,0.246
72.7200,0.244
72.7600,0.261
72.8000,0.272
72.8400,0.274
72.8800,0.244
72.9200,0.248
72.9600,0.233
73.0000,0.265
73.0400,0.261
73.0800,0.227
73.1200,0.252
73.1600,0.225
73.2000,0.263
73.2400,0.238
73.2800,0.225
73.3200,0.238
73.3600,0.207
73.4000,0.239
73.4400,0.226
73.4800,0.232
73.5200,0.231
73.5600,0.231
73.6000,0.249
73.6400,0.225
73.6800,0.240
73.7200,0.220
73.7600,0.244
73.8000,0.211
73.8400,0.224
73.8800,0.214
73.9200,0.230
73.9600,0.221
74.0000,0.215
74.0400,0.202
74.0800,0.210
74.1200,0.206
74.1600,0.219
74.2000,0.217
74.2400,0.199
74.2800,0.220
74.3200,0.207
74.3600,0.209
74.4000,0.199
74.4400,0.199
74.4800,0.196
74.5200,0.188
74.5600,0.207
74.6000,0.194
74.6400,0.198
74.6800,0.217
74.7200,0.212
74.7600,0.189
74.8000,0.194
74.8400,0.189
74.8800,0.185
74.9200,0.212
74.9600,0.179
75.0000,0.189
75.0400,0.191
75.0800,0.193
75.1200,0.213
75.1600,0.202
75.2000,0.202
75.2400,0.204
75.2800,0.201
75.3200,0.193
75.3600,0.202
75.4000,0.183
75.4400,0.188
75.4800,0.195
75.5200,0.195
75.5600,0.200
75.6000,0.173
75.6400,0.174
75.6800,0.180
75.7200,0.178
75.7600,0.186
75.8000,0.187
75.8400,0.189
75.8800,0.182
75.9200,0.167
75.9600,0.167
76.0000,0.195
76.0400,0.193
76.0800,0.188
76.1200,0.179
76.1600,0.176
76.2000,0.175
76.2400,0.179
76.2800,0.184
76.3200,0.168
76.3600,0.178
76.4000,0.181
76.4400,0.188
76.4800,0.194
76.5200,0.191
76.5600,0.179
76.6000,0.173
76.6400,0.174
76.6800,0.166
76.7200,0.152
76.7600,0.175
76.8000,0.177
76.8400,0.178
76.8800,0.185
76.9200,0.183
76.9600,0.161
77.0000,0.168
77.0400,0.188
77.0800,0.194
77.1200,0.175
77.1600,0.183
77.2000,0.181
77.2400,0.181
77.2800,0.171
77.3200,0.185
77.3600,0.177
77.4000,0.167
77.4400,0.186
77.4800,0.178
77.5200,0.193
77.5600,0.168
77.6000,0.195
77.6400,0.177
77.6800,0.173
77.7200,0.180
77.7600,0.175
77.8000,0.167
77.8400,0.174
77.8800,0.163
77.9200,0.167
77.9600,0.184
78.0000,0.174
78.0400,0.196
78.0800,0.171
78.1200,0.171
78.1600,0.176
78.2000,0.189
78.2400,0.185
78.2800,0.183
78.3200,0.186
78.3600,0.190
78.4000,0.187
78.4400,0.176
78.4800,0.196
78.5200,0.188
78.5600,0.178
78.6000,0.194
78.6400,0.171
78.6800,0.201
78.7200,0.189
78.7600,0.192
78.8000,0.210
78.8400,0.179
78.8800,0.172
78.9200,0.190
78.9600,0.198
79.0000,0.199
79.0400,0.192
79.0800,0.204
79.1200,0.184
79.1600,0.210
79.2000,0.202
79.2400,0.227
79.2800,0.216
79.3200,0.219
79.3600,0.200
79.4000,0.210
79.4400,0.205
79.4800,0.242
79.5200,0.220
79.5600,0.214
79.6000,0.223
79.6400,0.228
79.6800,0.220
79.7200,0.233
79.7600,0.232
79.8000,0.232
79.8400,0.254
79.8800,0.249
79.9200,0.237
79.9600,0.280
80.0000,0.272
